# Distance(A) Potential(eV) # E-fermi shifted to 0.0eV
      0.00000       4.15097
      0.08257       4.14984
      0.16515       4.14870
      0.24772       4.14757
      0.33030       4.14643
      0.41287       4.14530
      0.49545       4.14415
      0.57802       4.14302
      0.66060       4.14187
      0.74317       4.14073
      0.82575       4.13958
      0.90832       4.13844
      0.99090       4.13729
      1.07347       4.13615
      1.15605       4.13499
      1.23862       4.13385
      1.32120       4.13269
      1.40377       4.13154
      1.48635       4.13038
      1.56892       4.12924
      1.65150       4.12808
      1.73407       4.12693
      1.81665       4.12576
      1.89922       4.12461
      1.98180       4.12345
      2.06437       4.12229
      2.14695       4.12113
      2.22952       4.11997
      2.31210       4.11880
      2.39467       4.11765
      2.47725       4.11648
      2.55982       4.11533
      2.64239       4.11415
      2.72497       4.11300
      2.80754       4.11182
      2.89012       4.11067
      2.97269       4.10949
      3.05527       4.10834
      3.13784       4.10717
      3.22042       4.10601
      3.30299       4.10484
      3.38557       4.10369
      3.46814       4.10251
      3.55072       4.10136
      3.63329       4.10019
      3.71587       4.09904
      3.79844       4.09787
      3.88102       4.09672
      3.96359       4.09555
      4.04617       4.09440
      4.12874       4.09323
      4.21132       4.09209
      4.29389       4.09092
      4.37647       4.08977
      4.45904       4.08860
      4.54162       4.08746
      4.62419       4.08628
      4.70677       4.08513
      4.78934       4.08395
      4.87192       4.08279
      4.95449       4.08159
      5.03706       4.08041
      5.11964       4.07919
      5.20221       4.07798
      5.28479       4.07672
      5.36736       4.07547
      5.44994       4.07415
      5.53251       4.07283
      5.61509       4.07142
      5.69766       4.06999
      5.78024       4.06845
      5.86281       4.06687
      5.94539       4.06513
      6.02796       4.06331
      6.11054       4.06128
      6.19311       4.05912
      6.27569       4.05668
      6.35826       4.05401
      6.44084       4.05096
      6.52341       4.04757
      6.60599       4.04363
      6.68856       4.03918
      6.77114       4.03398
      6.85371       4.02800
      6.93629       4.02096
      7.01886       4.01278
      7.10144       4.00309
      7.18401       3.99175
      7.26659       3.97825
      7.34916       3.96236
      7.43174       3.94341
      7.51431       3.92099
      7.59688       3.89422
      7.67946       3.86247
      7.76203       3.82453
      7.84461       3.77947
      7.92718       3.72565
      8.00976       3.66169
      8.09233       3.58540
      8.17491       3.49478
      8.25748       3.38688
      8.34006       3.25892
      8.42263       3.10692
      8.50521       2.92705
      8.58778       2.71387
      8.67036       2.46208
      8.75293       2.16471
      8.83551       1.81371
      8.91808       1.39867
      9.00066       0.92067
      9.08323       0.37532
      9.16581      -0.26202
      9.24838      -1.00665
      9.33096      -1.85465
      9.41353      -2.78284
      9.49611      -3.75728
      9.57868      -4.74539
      9.66126      -5.73225
      9.74383      -6.69361
      9.82641      -7.60435
      9.90898      -8.43903
      9.99156      -9.16776
     10.07413      -9.76072
     10.15670     -10.18887
     10.23928     -10.42698
     10.32185     -10.45620
     10.40443     -10.26614
     10.48700      -9.85586
     10.56958      -9.23532
     10.65215      -8.42606
     10.73473      -7.46247
     10.81730      -6.39108
     10.89988      -5.26904
     10.98245      -4.15896
     11.06503      -3.12380
     11.14760      -2.22244
     11.23018      -1.50310
     11.31275      -0.99932
     11.39533      -0.72674
     11.47790      -0.65345
     11.56048      -0.74725
     11.64305      -1.02363
     11.72563      -1.48735
     11.80820      -2.12165
     11.89078      -2.89607
     11.97335      -3.76920
     12.05593      -4.69455
     12.13850      -5.62406
     12.22108      -6.50970
     12.30365      -7.30796
     12.38623      -7.98241
     12.46880      -8.50545
     12.55138      -8.85845
     12.63395      -9.03144
     12.71652      -9.02269
     12.79910      -8.83774
     12.88167      -8.48904
     12.96425      -7.99423
     13.04682      -7.37545
     13.12940      -6.65738
     13.21197      -5.86809
     13.29455      -5.03492
     13.37712      -4.19062
     13.45970      -3.36539
     13.54227      -2.58991
     13.62485      -1.90870
     13.70742      -1.36790
     13.79000      -1.00051
     13.87257      -0.82361
     13.95515      -0.84084
     14.03772      -1.05602
     14.12030      -1.47350
     14.20287      -2.08027
     14.28545      -2.83873
     14.36802      -3.71332
     14.45060      -4.67315
     14.53317      -5.67399
     14.61575      -6.67602
     14.69832      -7.63498
     14.78090      -8.50772
     14.86347      -9.25217
     14.94605      -9.83180
     15.02862     -10.21571
     15.11119     -10.38305
     15.19377     -10.32151
     15.27634     -10.03016
     15.35892      -9.51762
     15.44149      -8.80486
     15.52407      -7.92320
     15.60664      -6.91609
     15.68922      -5.83456
     15.77179      -4.73589
     15.85437      -3.67777
     15.93694      -2.71830
     16.01952      -1.90600
     16.10209      -1.28454
     16.18467      -0.87380
     16.26724      -0.67173
     16.34982      -0.67263
     16.43239      -0.87615
     16.51497      -1.29357
     16.59754      -1.91754
     16.68012      -2.72991
     16.76269      -3.70815
     16.84527      -4.81904
     16.92784      -6.03607
     17.01042      -7.30086
     17.09299      -8.52338
     17.17557      -9.61317
     17.25814     -10.50360
     17.34072     -11.15848
     17.42329     -11.56914
     17.50587     -11.73976
     17.58844     -11.68267
     17.67101     -11.40464
     17.75359     -10.94137
     17.83616     -10.38264
     17.91874      -9.82235
     18.00131      -9.33413
     18.08389      -8.94430
     18.16646      -8.64167
     18.24904      -8.36396
     18.33161      -8.01256
     18.41419      -7.52794
     18.49676      -6.90357
     18.57934      -6.14493
     18.66191      -5.26553
     18.74449      -4.27238
     18.82706      -3.16789
     18.90964      -1.98571
     18.99221      -0.80388
     19.07479       0.29564
     19.15736       1.24390
     19.23994       2.02015
     19.32251       2.61216
     19.40509       3.03545
     19.48766       3.33095
     19.57024       3.54947
     19.65281       3.71911
     19.73539       3.84564
     19.81796       3.94123
     19.90054       4.01289
     19.98311       4.06725
     20.06569       4.10813
     20.14826       4.13924
     20.23083       4.16262
     20.31341       4.18043
     20.39598       4.19374
     20.47856       4.20385
     20.56113       4.21132
     20.64371       4.21693
     20.72628       4.22096
     20.80886       4.22391
     20.89143       4.22591
     20.97401       4.22730
     21.05658       4.22809
     21.13916       4.22853
     21.22173       4.22861
     21.30431       4.22849
     21.38688       4.22813
     21.46946       4.22767
     21.55203       4.22705
     21.63461       4.22639
     21.71718       4.22562
     21.79976       4.22483
     21.88233       4.22397
     21.96491       4.22310
     22.04748       4.22219
     22.13006       4.22128
     22.21263       4.22033
     22.29521       4.21940
     22.37778       4.21843
     22.46036       4.21748
     22.54293       4.21651
     22.62551       4.21555
     22.70808       4.21457
     22.79065       4.21361
     22.87323       4.21263
     22.95580       4.21167
     23.03838       4.21068
     23.12095       4.20972
     23.20353       4.20873
     23.28610       4.20777
     23.36868       4.20678
     23.45125       4.20581
     23.53383       4.20483
     23.61640       4.20386
     23.69898       4.20287
     23.78155       4.20189
     23.86413       4.20091
     23.94670       4.19993
     24.02928       4.19893
     24.11185       4.19795
     24.19443       4.19695
     24.27700       4.19596
     24.35958       4.19496
     24.44215       4.19396
     24.52473       4.19295
     24.60730       4.19195
     24.68988       4.19094
     24.77245       4.18992
     24.85503       4.18890
     24.93760       4.18788
     25.02018       4.18686
     25.10275       4.18583
     25.18532       4.18479
     25.26790       4.18376
     25.35047       4.18271
     25.43305       4.18167
     25.51562       4.18062
     25.59820       4.17956
     25.68077       4.17850
     25.76335       4.17744
     25.84592       4.17637
     25.92850       4.17530
     26.01107       4.17423
     26.09365       4.17315
     26.17622       4.17207
     26.25880       4.17099
     26.34137       4.16990
     26.42395       4.16881
     26.50652       4.16771
     26.58910       4.16661
     26.67167       4.16551
     26.75425       4.16441
     26.83682       4.16330
     26.91940       4.16219
     27.00197       4.16108
     27.08455       4.15996
     27.16712       4.15885
     27.24970       4.15773
     27.33227       4.15661
     27.41485       4.15548
     27.49742       4.15436
     27.58000       4.15323
     27.66257       4.15210
