# Distance(A) Potential(eV) # E-fermi shifted to 0.0eV
      0.00000       4.11717
      0.08257       4.11623
      0.16515       4.11521
      0.24772       4.11427
      0.33030       4.11324
      0.41287       4.11229
      0.49545       4.11126
      0.57802       4.11031
      0.66060       4.10928
      0.74317       4.10833
      0.82575       4.10730
      0.90832       4.10634
      0.99090       4.10530
      1.07347       4.10435
      1.15605       4.10331
      1.23862       4.10235
      1.32120       4.10131
      1.40377       4.10035
      1.48635       4.09930
      1.56892       4.09834
      1.65150       4.09729
      1.73407       4.09633
      1.81665       4.09528
      1.89922       4.09431
      1.98180       4.09326
      2.06437       4.09229
      2.14695       4.09124
      2.22952       4.09026
      2.31210       4.08921
      2.39467       4.08823
      2.47725       4.08718
      2.55982       4.08620
      2.64239       4.08514
      2.72497       4.08417
      2.80754       4.08311
      2.89012       4.08213
      2.97269       4.08107
      3.05527       4.08009
      3.13784       4.07903
      3.22042       4.07805
      3.30299       4.07699
      3.38557       4.07601
      3.46814       4.07495
      3.55072       4.07397
      3.63329       4.07291
      3.71587       4.07193
      3.79844       4.07087
      3.88102       4.06989
      3.96359       4.06883
      4.04617       4.06785
      4.12874       4.06680
      4.21132       4.06582
      4.29389       4.06476
      4.37647       4.06378
      4.45904       4.06272
      4.54162       4.06175
      4.62419       4.06068
      4.70677       4.05970
      4.78934       4.05863
      4.87192       4.05763
      4.95449       4.05655
      5.03706       4.05554
      5.11964       4.05443
      5.20221       4.05339
      5.28479       4.05224
      5.36736       4.05116
      5.44994       4.04995
      5.53251       4.04880
      5.61509       4.04751
      5.69766       4.04625
      5.78024       4.04483
      5.86281       4.04341
      5.94539       4.04179
      6.02796       4.04015
      6.11054       4.03825
      6.19311       4.03626
      6.27569       4.03395
      6.35826       4.03146
      6.44084       4.02855
      6.52341       4.02534
      6.60599       4.02155
      6.68856       4.01729
      6.77114       4.01224
      6.85371       4.00646
      6.93629       3.99958
      7.01886       3.99162
      7.10144       3.98212
      7.18401       3.97101
      7.26659       3.95772
      7.34916       3.94208
      7.43174       3.92337
      7.51431       3.90124
      7.59688       3.87474
      7.67946       3.84331
      7.76203       3.80570
      7.84461       3.76101
      7.92718       3.70758
      8.00976       3.64406
      8.09233       3.56822
      8.17491       3.47812
      8.25748       3.37076
      8.34006       3.24342
      8.42263       3.09205
      8.50521       2.91289
      8.58778       2.70045
      8.67036       2.44947
      8.75293       2.15294
      8.83551       1.80285
      8.91808       1.38875
      9.00066       0.91174
      9.08323       0.36738
      9.16581      -0.26892
      9.24838      -1.01252
      9.33096      -1.85946
      9.41353      -2.78664
      9.49611      -3.76007
      9.57868      -4.74722
      9.66126      -5.73314
      9.74383      -6.69361
      9.82641      -7.60343
      9.90898      -8.43717
      9.99156      -9.16491
     10.07413      -9.75683
     10.15670     -10.18388
     10.23928     -10.42086
     10.32185     -10.44890
     10.40443     -10.25762
     10.48700      -9.84608
     10.56958      -9.22422
     10.65215      -8.41360
     10.73473      -7.44864
     10.81730      -6.37594
     10.89988      -5.25270
     10.98245      -4.14156
     11.06503      -3.10555
     11.14760      -2.20359
     11.23018      -1.48388
     11.31275      -0.97998
     11.39533      -0.70752
     11.47790      -0.63457
     11.56048      -0.72889
     11.64305      -1.00595
     11.72563      -1.47045
     11.80820      -2.10560
     11.89078      -2.88086
     11.97335      -3.75486
     12.05593      -4.68101
     12.13850      -5.61132
     12.22108      -6.49766
     12.30365      -7.29659
     12.38623      -7.97156
     12.46880      -8.49495
     12.55138      -8.84792
     12.63395      -9.02045
     12.71652      -9.01050
     12.79910      -8.82356
     12.88167      -8.47177
     12.96425      -7.97279
     13.04682      -7.34845
     13.12940      -6.62353
     13.21197      -5.82576
     13.29455      -4.98263
     13.37712      -4.12638
     13.45970      -3.28733
     13.54227      -2.49562
     13.62485      -1.79579
     13.70742      -1.23301
     13.79000      -0.84099
     13.87257      -0.63511
     13.95515      -0.62207
     14.03772      -0.79424
     14.12030      -1.16704
     14.20287      -1.73697
     14.28545      -2.47842
     14.36802      -3.37136
     14.45060      -4.37382
     14.53317      -5.45109
     14.61575      -6.57231
     14.69832      -7.68543
     14.78090      -8.72853
     14.86347      -9.63975
     14.94605     -10.36579
     15.02862     -10.88186
     15.11119     -11.18315
     15.19377     -11.25934
     15.27634     -11.09940
     15.35892     -10.69696
     15.44149     -10.06147
     15.52407      -9.22444
     15.60664      -8.23445
     15.68922      -7.16195
     15.77179      -6.10734
     15.85437      -5.13434
     15.93694      -4.26435
     16.01952      -3.49461
     16.10209      -2.84807
     16.18467      -2.34070
     16.26724      -2.00698
     16.34982      -1.86203
     16.43239      -1.90751
     16.51497      -2.14469
     16.59754      -2.56274
     16.68012      -3.14456
     16.76269      -3.87761
     16.84527      -4.74365
     16.92784      -5.72750
     17.01042      -6.81201
     17.09299      -7.95218
     17.17557      -9.04683
     17.25814     -10.01150
     17.34072     -10.78798
     17.42329     -11.33749
     17.50587     -11.64676
     17.58844     -11.72401
     17.67101     -11.58219
     17.75359     -11.24912
     17.83616     -10.79826
     17.91874     -10.30979
     18.00131      -9.82952
     18.08389      -9.37005
     18.16646      -8.94171
     18.24904      -8.55885
     18.33161      -8.19477
     18.41419      -7.78502
     18.49676      -7.27509
     18.57934      -6.63772
     18.66191      -5.86691
     18.74449      -4.96087
     18.82706      -3.92717
     18.90964      -2.80109
     18.99221      -1.65783
     19.07479      -0.56048
     19.15736       0.43337
     19.23994       1.30835
     19.32251       2.04440
     19.40509       2.61700
     19.48766       3.02649
     19.57024       3.31500
     19.65281       3.52609
     19.73539       3.68814
     19.81796       3.81077
     19.90054       3.90285
     19.98311       3.97232
     20.06569       4.02479
     20.14826       4.06447
     20.23083       4.09458
     20.31341       4.11732
     20.39598       4.13461
     20.47856       4.14760
     20.56113       4.15748
     20.64371       4.16480
     20.72628       4.17034
     20.80886       4.17433
     20.89143       4.17731
     20.97401       4.17933
     21.05658       4.18080
     21.13916       4.18165
     21.22173       4.18222
     21.30431       4.18237
     21.38688       4.18240
     21.46946       4.18213
     21.55203       4.18184
     21.63461       4.18132
     21.71718       4.18082
     21.79976       4.18016
     21.88233       4.17955
     21.96491       4.17879
     22.04748       4.17811
     22.13006       4.17730
     22.21263       4.17658
     22.29521       4.17574
     22.37778       4.17499
     22.46036       4.17413
     22.54293       4.17337
     22.62551       4.17251
     22.70808       4.17174
     22.79065       4.17087
     22.87323       4.17009
     22.95580       4.16922
     23.03838       4.16845
     23.12095       4.16757
     23.20353       4.16679
     23.28610       4.16591
     23.36868       4.16514
     23.45125       4.16426
     23.53383       4.16348
     23.61640       4.16260
     23.69898       4.16181
     23.78155       4.16093
     23.86413       4.16014
     23.94670       4.15926
     24.02928       4.15847
     24.11185       4.15758
     24.19443       4.15678
     24.27700       4.15589
     24.35958       4.15508
     24.44215       4.15418
     24.52473       4.15337
     24.60730       4.15247
     24.68988       4.15165
     24.77245       4.15074
     24.85503       4.14991
     24.93760       4.14899
     25.02018       4.14816
     25.10275       4.14724
     25.18532       4.14640
     25.26790       4.14546
     25.35047       4.14461
     25.43305       4.14367
     25.51562       4.14281
     25.59820       4.14186
     25.68077       4.14100
     25.76335       4.14004
     25.84592       4.13917
     25.92850       4.13820
     26.01107       4.13732
     26.09365       4.13635
     26.17622       4.13546
     26.25880       4.13448
     26.34137       4.13359
     26.42395       4.13260
     26.50652       4.13170
     26.58910       4.13071
     26.67167       4.12980
     26.75425       4.12880
     26.83682       4.12789
     26.91940       4.12689
     27.00197       4.12597
     27.08455       4.12496
     27.16712       4.12404
     27.24970       4.12303
     27.33227       4.12210
     27.41485       4.12108
     27.49742       4.12015
     27.58000       4.11913
     27.66257       4.11820
